# Morse Potential Data for C=N Iminium Ion
# Dissociation Energy (De): 5.500 eV
# Equilibrium Bond Length (re): 1.250 A
# Morse Parameter (a): 25183330242005.895 A^-1
# Force Constant: 1200 N/m
# 
# Bond_Length(A)	Potential_Energy(eV)
0.800000	inf
0.803407	inf
0.806814	inf
0.810220	inf
0.813627	inf
0.817034	inf
0.820441	inf
0.823848	inf
0.827255	inf
0.830661	inf
0.834068	inf
0.837475	inf
0.840882	inf
0.844289	inf
0.847695	inf
0.851102	inf
0.854509	inf
0.857916	inf
0.861323	inf
0.864729	inf
0.868136	inf
0.871543	inf
0.874950	inf
0.878357	inf
0.881764	inf
0.885170	inf
0.888577	inf
0.891984	inf
0.895391	inf
0.898798	inf
0.902204	inf
0.905611	inf
0.909018	inf
0.912425	inf
0.915832	inf
0.919238	inf
0.922645	inf
0.926052	inf
0.929459	inf
0.932866	inf
0.936273	inf
0.939679	inf
0.943086	inf
0.946493	inf
0.949900	inf
0.953307	inf
0.956713	inf
0.960120	inf
0.963527	inf
0.966934	inf
0.970341	inf
0.973747	inf
0.977154	inf
0.980561	inf
0.983968	inf
0.987375	inf
0.990782	inf
0.994188	inf
0.997595	inf
1.001002	inf
1.004409	inf
1.007816	inf
1.011222	inf
1.014629	inf
1.018036	inf
1.021443	inf
1.024850	inf
1.028257	inf
1.031663	inf
1.035070	inf
1.038477	inf
1.041884	inf
1.045291	inf
1.048697	inf
1.052104	inf
1.055511	inf
1.058918	inf
1.062325	inf
1.065731	inf
1.069138	inf
1.072545	inf
1.075952	inf
1.079359	inf
1.082766	inf
1.086172	inf
1.089579	inf
1.092986	inf
1.096393	inf
1.099800	inf
1.103206	inf
1.106613	inf
1.110020	inf
1.113427	inf
1.116834	inf
1.120240	inf
1.123647	inf
1.127054	inf
1.130461	inf
1.133868	inf
1.137275	inf
1.140681	inf
1.144088	inf
1.147495	inf
1.150902	inf
1.154309	inf
1.157715	inf
1.161122	inf
1.164529	inf
1.167936	inf
1.171343	inf
1.174749	inf
1.178156	inf
1.181563	inf
1.184970	inf
1.188377	inf
1.191784	inf
1.195190	inf
1.198597	inf
1.202004	inf
1.205411	inf
1.208818	inf
1.212224	inf
1.215631	inf
1.219038	inf
1.222445	inf
1.225852	inf
1.229259	inf
1.232665	inf
1.236072	inf
1.239479	inf
1.242886	inf
1.246293	inf
1.249699	inf
1.253106	5.500000
1.256513	5.500000
1.259920	5.500000
1.263327	5.500000
1.266733	5.500000
1.270140	5.500000
1.273547	5.500000
1.276954	5.500000
1.280361	5.500000
1.283768	5.500000
1.287174	5.500000
1.290581	5.500000
1.293988	5.500000
1.297395	5.500000
1.300802	5.500000
1.304208	5.500000
1.307615	5.500000
1.311022	5.500000
1.314429	5.500000
1.317836	5.500000
1.321242	5.500000
1.324649	5.500000
1.328056	5.500000
1.331463	5.500000
1.334870	5.500000
1.338277	5.500000
1.341683	5.500000
1.345090	5.500000
1.348497	5.500000
1.351904	5.500000
1.355311	5.500000
1.358717	5.500000
1.362124	5.500000
1.365531	5.500000
1.368938	5.500000
1.372345	5.500000
1.375752	5.500000
1.379158	5.500000
1.382565	5.500000
1.385972	5.500000
1.389379	5.500000
1.392786	5.500000
1.396192	5.500000
1.399599	5.500000
1.403006	5.500000
1.406413	5.500000
1.409820	5.500000
1.413226	5.500000
1.416633	5.500000
1.420040	5.500000
1.423447	5.500000
1.426854	5.500000
1.430261	5.500000
1.433667	5.500000
1.437074	5.500000
1.440481	5.500000
1.443888	5.500000
1.447295	5.500000
1.450701	5.500000
1.454108	5.500000
1.457515	5.500000
1.460922	5.500000
1.464329	5.500000
1.467735	5.500000
1.471142	5.500000
1.474549	5.500000
1.477956	5.500000
1.481363	5.500000
1.484770	5.500000
1.488176	5.500000
1.491583	5.500000
1.494990	5.500000
1.498397	5.500000
1.501804	5.500000
1.505210	5.500000
1.508617	5.500000
1.512024	5.500000
1.515431	5.500000
1.518838	5.500000
1.522244	5.500000
1.525651	5.500000
1.529058	5.500000
1.532465	5.500000
1.535872	5.500000
1.539279	5.500000
1.542685	5.500000
1.546092	5.500000
1.549499	5.500000
1.552906	5.500000
1.556313	5.500000
1.559719	5.500000
1.563126	5.500000
1.566533	5.500000
1.569940	5.500000
1.573347	5.500000
1.576754	5.500000
1.580160	5.500000
1.583567	5.500000
1.586974	5.500000
1.590381	5.500000
1.593788	5.500000
1.597194	5.500000
1.600601	5.500000
1.604008	5.500000
1.607415	5.500000
1.610822	5.500000
1.614228	5.500000
1.617635	5.500000
1.621042	5.500000
1.624449	5.500000
1.627856	5.500000
1.631263	5.500000
1.634669	5.500000
1.638076	5.500000
1.641483	5.500000
1.644890	5.500000
1.648297	5.500000
1.651703	5.500000
1.655110	5.500000
1.658517	5.500000
1.661924	5.500000
1.665331	5.500000
1.668737	5.500000
1.672144	5.500000
1.675551	5.500000
1.678958	5.500000
1.682365	5.500000
1.685772	5.500000
1.689178	5.500000
1.692585	5.500000
1.695992	5.500000
1.699399	5.500000
1.702806	5.500000
1.706212	5.500000
1.709619	5.500000
1.713026	5.500000
1.716433	5.500000
1.719840	5.500000
1.723246	5.500000
1.726653	5.500000
1.730060	5.500000
1.733467	5.500000
1.736874	5.500000
1.740281	5.500000
1.743687	5.500000
1.747094	5.500000
1.750501	5.500000
1.753908	5.500000
1.757315	5.500000
1.760721	5.500000
1.764128	5.500000
1.767535	5.500000
1.770942	5.500000
1.774349	5.500000
1.777756	5.500000
1.781162	5.500000
1.784569	5.500000
1.787976	5.500000
1.791383	5.500000
1.794790	5.500000
1.798196	5.500000
1.801603	5.500000
1.805010	5.500000
1.808417	5.500000
1.811824	5.500000
1.815230	5.500000
1.818637	5.500000
1.822044	5.500000
1.825451	5.500000
1.828858	5.500000
1.832265	5.500000
1.835671	5.500000
1.839078	5.500000
1.842485	5.500000
1.845892	5.500000
1.849299	5.500000
1.852705	5.500000
1.856112	5.500000
1.859519	5.500000
1.862926	5.500000
1.866333	5.500000
1.869739	5.500000
1.873146	5.500000
1.876553	5.500000
1.879960	5.500000
1.883367	5.500000
1.886774	5.500000
1.890180	5.500000
1.893587	5.500000
1.896994	5.500000
1.900401	5.500000
1.903808	5.500000
1.907214	5.500000
1.910621	5.500000
1.914028	5.500000
1.917435	5.500000
1.920842	5.500000
1.924248	5.500000
1.927655	5.500000
1.931062	5.500000
1.934469	5.500000
1.937876	5.500000
1.941283	5.500000
1.944689	5.500000
1.948096	5.500000
1.951503	5.500000
1.954910	5.500000
1.958317	5.500000
1.961723	5.500000
1.965130	5.500000
1.968537	5.500000
1.971944	5.500000
1.975351	5.500000
1.978758	5.500000
1.982164	5.500000
1.985571	5.500000
1.988978	5.500000
1.992385	5.500000
1.995792	5.500000
1.999198	5.500000
2.002605	5.500000
2.006012	5.500000
2.009419	5.500000
2.012826	5.500000
2.016232	5.500000
2.019639	5.500000
2.023046	5.500000
2.026453	5.500000
2.029860	5.500000
2.033267	5.500000
2.036673	5.500000
2.040080	5.500000
2.043487	5.500000
2.046894	5.500000
2.050301	5.500000
2.053707	5.500000
2.057114	5.500000
2.060521	5.500000
2.063928	5.500000
2.067335	5.500000
2.070741	5.500000
2.074148	5.500000
2.077555	5.500000
2.080962	5.500000
2.084369	5.500000
2.087776	5.500000
2.091182	5.500000
2.094589	5.500000
2.097996	5.500000
2.101403	5.500000
2.104810	5.500000
2.108216	5.500000
2.111623	5.500000
2.115030	5.500000
2.118437	5.500000
2.121844	5.500000
2.125251	5.500000
2.128657	5.500000
2.132064	5.500000
2.135471	5.500000
2.138878	5.500000
2.142285	5.500000
2.145691	5.500000
2.149098	5.500000
2.152505	5.500000
2.155912	5.500000
2.159319	5.500000
2.162725	5.500000
2.166132	5.500000
2.169539	5.500000
2.172946	5.500000
2.176353	5.500000
2.179760	5.500000
2.183166	5.500000
2.186573	5.500000
2.189980	5.500000
2.193387	5.500000
2.196794	5.500000
2.200200	5.500000
2.203607	5.500000
2.207014	5.500000
2.210421	5.500000
2.213828	5.500000
2.217234	5.500000
2.220641	5.500000
2.224048	5.500000
2.227455	5.500000
2.230862	5.500000
2.234269	5.500000
2.237675	5.500000
2.241082	5.500000
2.244489	5.500000
2.247896	5.500000
2.251303	5.500000
2.254709	5.500000
2.258116	5.500000
2.261523	5.500000
2.264930	5.500000
2.268337	5.500000
2.271743	5.500000
2.275150	5.500000
2.278557	5.500000
2.281964	5.500000
2.285371	5.500000
2.288778	5.500000
2.292184	5.500000
2.295591	5.500000
2.298998	5.500000
2.302405	5.500000
2.305812	5.500000
2.309218	5.500000
2.312625	5.500000
2.316032	5.500000
2.319439	5.500000
2.322846	5.500000
2.326253	5.500000
2.329659	5.500000
2.333066	5.500000
2.336473	5.500000
2.339880	5.500000
2.343287	5.500000
2.346693	5.500000
2.350100	5.500000
2.353507	5.500000
2.356914	5.500000
2.360321	5.500000
2.363727	5.500000
2.367134	5.500000
2.370541	5.500000
2.373948	5.500000
2.377355	5.500000
2.380762	5.500000
2.384168	5.500000
2.387575	5.500000
2.390982	5.500000
2.394389	5.500000
2.397796	5.500000
2.401202	5.500000
2.404609	5.500000
2.408016	5.500000
2.411423	5.500000
2.414830	5.500000
2.418236	5.500000
2.421643	5.500000
2.425050	5.500000
2.428457	5.500000
2.431864	5.500000
2.435271	5.500000
2.438677	5.500000
2.442084	5.500000
2.445491	5.500000
2.448898	5.500000
2.452305	5.500000
2.455711	5.500000
2.459118	5.500000
2.462525	5.500000
2.465932	5.500000
2.469339	5.500000
2.472745	5.500000
2.476152	5.500000
2.479559	5.500000
2.482966	5.500000
2.486373	5.500000
2.489780	5.500000
2.493186	5.500000
2.496593	5.500000
2.500000	5.500000
